File: InputWaveForm/OutputCSV/OutputFile.csv
Time (s),InputForce (N), Displacement (mm)
0 , 300 , 0.317002
0.005 , 296.3064 , 0.258795
0.01 , 285.3171 , 0.194216
0.015 , 267.3021 , 0.124855
0.02 , 242.7051 , 0.052419
0.025 , 212.1321 , -0.0213074
0.03 , 176.3355 , -0.0945092
0.035 , 136.197 , -0.165384
0.04 , 92.7051 , -0.232186
0.045 , 46.9302 , -0.293271
0.05 , 0 , -0.347135
0.055 , -46.9302 , -0.392452
0.06 , -92.7051 , -0.428104
0.065 , -136.197 , -0.453216
0.07 , -176.3355 , -0.467167
0.075 , -212.1321 , -0.469616
0.08 , -242.7051 , -0.460501
0.085 , -267.3021 , -0.440047
0.09 , -285.3171 , -0.408758
0.095 , -296.3064 , -0.367403
0.1 , -300 , -0.317002
0.105 , -296.3064 , -0.258795
0.11 , -285.3171 , -0.194216
0.115 , -267.3021 , -0.124855
0.12 , -242.7051 , -0.052419
0.125 , -212.1321 , 0.0213074
0.13 , -176.3355 , 0.0945092
0.135 , -136.197 , 0.165384
0.14 , -92.7051 , 0.232186
0.145 , -46.9302 , 0.293271
0.15 , 0 , 0.347135
0.155 , 46.9302 , 0.392452
0.16 , 92.7051 , 0.428104
0.165 , 136.197 , 0.453216
0.17 , 176.3355 , 0.467167
0.175 , 212.1321 , 0.469616
0.18 , 242.7051 , 0.460501
0.185 , 267.3021 , 0.440047
0.19 , 285.3171 , 0.408758
0.195 , 296.3064 , 0.367403
0.2 , 300 , 0.317002
0.205 , 296.3064 , 0.258795
0.21 , 285.3171 , 0.194216
0.215 , 267.3021 , 0.124855
0.22 , 242.7051 , 0.052419
0.225 , 212.1321 , -0.0213074
0.23 , 176.3355 , -0.0945092
0.235 , 136.197 , -0.165384
0.24 , 92.7051 , -0.232186
0.245 , 46.9302 , -0.293271
0.25 , 0 , -0.347135
0.255 , -46.9302 , -0.392452
0.26 , -92.7051 , -0.428104
0.265 , -136.197 , -0.453216
0.27 , -176.3355 , -0.467167
0.275 , -212.1321 , -0.469616
0.28 , -242.7051 , -0.460501
0.285 , -267.3021 , -0.440047
0.29 , -285.3171 , -0.408758
0.295 , -296.3064 , -0.367403
0.3 , -300 , -0.317002
0.305 , -296.3064 , -0.258795
0.31 , -285.3171 , -0.194216
0.315 , -267.3021 , -0.124855
0.32 , -242.7051 , -0.052419
0.325 , -212.1321 , 0.0213074
0.33 , -176.3355 , 0.0945092
0.335 , -136.197 , 0.165384
0.34 , -92.7051 , 0.232186
0.345 , -46.9302 , 0.293271
0.35 , 0 , 0.347135
0.355 , 46.9302 , 0.392452
0.36 , 92.7051 , 0.428104
0.365 , 136.197 , 0.453216
0.37 , 176.3355 , 0.467167
0.375 , 212.1321 , 0.469616
0.38 , 242.7051 , 0.460501
0.385 , 267.3021 , 0.440047
0.39 , 285.3171 , 0.408758
0.395 , 296.3064 , 0.367403
0.4 , 300 , 0.317002
0.405 , 296.3064 , 0.258795
0.41 , 285.3171 , 0.194216
0.415 , 267.3021 , 0.124855
0.42 , 242.7051 , 0.052419
0.425 , 212.1321 , -0.0213074
0.43 , 176.3355 , -0.0945092
0.435 , 136.197 , -0.165384
0.44 , 92.7051 , -0.232186
0.445 , 46.9302 , -0.293271
0.45 , 0 , -0.347135
0.455 , -46.9302 , -0.392452
0.46 , -92.7051 , -0.428104
0.465 , -136.197 , -0.453216
0.47 , -176.3355 , -0.467167
0.475 , -212.1321 , -0.469616
0.48 , -242.7051 , -0.460501
0.485 , -267.3021 , -0.440047
0.49 , -285.3171 , -0.408758
0.495 , -296.3064 , -0.367403
0.5 , -300 , -0.317002
0.505 , -296.3064 , -0.258795
0.51 , -285.3171 , -0.194216
0.515 , -267.3021 , -0.124855
0.52 , -242.7051 , -0.052419
0.525 , -212.1321 , 0.0213074
0.53 , -176.3355 , 0.0945092
0.535 , -136.197 , 0.165384
0.54 , -92.7051 , 0.232186
0.545 , -46.9302 , 0.293271
0.55 , 0 , 0.347135
0.555 , 46.9302 , 0.392452
0.56 , 92.7051 , 0.428104
0.565 , 136.197 , 0.453216
0.57 , 176.3355 , 0.467167
0.575 , 212.1321 , 0.469616
0.58 , 242.7051 , 0.460501
0.585 , 267.3021 , 0.440047
0.59 , 285.3171 , 0.408758
0.595 , 296.3064 , 0.367403
0.6 , 300 , 0.317002
0.605 , 296.3064 , 0.258795
0.61 , 285.3171 , 0.194216
0.615 , 267.3021 , 0.124855
0.62 , 242.7051 , 0.052419
0.625 , 212.1321 , -0.0213074
0.63 , 176.3355 , -0.0945092
0.635 , 136.197 , -0.165384
0.64 , 92.7051 , -0.232186
0.645 , 46.9302 , -0.293271
0.65 , 0 , -0.347135
0.655 , -46.9302 , -0.392452
0.66 , -92.7051 , -0.428104
0.665 , -136.197 , -0.453216
0.67 , -176.3355 , -0.467167
0.675 , -212.1321 , -0.469616
0.68 , -242.7051 , -0.460501
0.685 , -267.3021 , -0.440047
0.69 , -285.3171 , -0.408758
0.695 , -296.3064 , -0.367403
0.7 , -300 , -0.317002
0.705 , -296.3064 , -0.258795
0.71 , -285.3171 , -0.194216
0.715 , -267.3021 , -0.124855
0.72 , -242.7051 , -0.052419
0.725 , -212.1321 , 0.0213074
0.73 , -176.3355 , 0.0945092
0.735 , -136.197 , 0.165384
0.74 , -92.7051 , 0.232186
0.745 , -46.9302 , 0.293271
0.75 , 0 , 0.347135
0.755 , 46.9302 , 0.392452
0.76 , 92.7051 , 0.428104
0.765 , 136.197 , 0.453216
0.77 , 176.3355 , 0.467167
0.775 , 212.1321 , 0.469616
0.78 , 242.7051 , 0.460501
0.785 , 267.3021 , 0.440047
0.79 , 285.3171 , 0.408758
0.795 , 296.3064 , 0.367403
0.8 , 300 , 0.317002
0.805 , 296.3064 , 0.258795
0.81 , 285.3171 , 0.194216
0.815 , 267.3021 , 0.124855
0.82 , 242.7051 , 0.052419
0.825 , 212.1321 , -0.0213074
0.83 , 176.3355 , -0.0945092
0.835 , 136.197 , -0.165384
0.84 , 92.7051 , -0.232186
0.845 , 46.9302 , -0.293271
0.85 , 0 , -0.347135
0.855 , -46.9302 , -0.392452
0.86 , -92.7051 , -0.428104
0.865 , -136.197 , -0.453216
0.87 , -176.3355 , -0.467167
0.875 , -212.1321 , -0.469616
0.88 , -242.7051 , -0.460501
0.885 , -267.3021 , -0.440047
0.89 , -285.3171 , -0.408758
0.895 , -296.3064 , -0.367403
0.9 , -300 , -0.317002
0.905 , -296.3064 , -0.258795
0.91 , -285.3171 , -0.194216
0.915 , -267.3021 , -0.124855
0.92 , -242.7051 , -0.052419
0.925 , -212.1321 , 0.0213074
0.93 , -176.3355 , 0.0945092
0.935 , -136.197 , 0.165384
0.94 , -92.7051 , 0.232186
0.945 , -46.9302 , 0.293271
0.95 , 0 , 0.347135
0.955 , 46.9302 , 0.392452
0.96 , 92.7051 , 0.428104
0.965 , 136.197 , 0.453216
0.97 , 176.3355 , 0.467167
0.975 , 212.1321 , 0.469616
0.98 , 242.7051 , 0.460501
0.985 , 267.3021 , 0.440047
0.99 , 285.3171 , 0.408758
0.995 , 296.3064 , 0.367403
1 , 300 , 0.317002
1.005 , 296.3064 , 0.258795
1.01 , 285.3171 , 0.194216
1.015 , 267.3021 , 0.124855
1.02 , 242.7051 , 0.052419
1.025 , 212.1321 , -0.0213074
1.03 , 176.3355 , -0.0945092
1.035 , 136.197 , -0.165384
1.04 , 92.7051 , -0.232186
1.045 , 46.9302 , -0.293271
1.05 , 0 , -0.347135
1.055 , -46.9302 , -0.392452
1.06 , -92.7051 , -0.428104
1.065 , -136.197 , -0.453216
1.07 , -176.3355 , -0.467167
1.075 , -212.1321 , -0.469616
1.08 , -242.7051 , -0.460501
1.085 , -267.3021 , -0.440047
1.09 , -285.3171 , -0.408758
1.095 , -296.3064 , -0.367403
1.1 , -300 , -0.317002
1.105 , -296.3064 , -0.258795
1.11 , -285.3171 , -0.194216
1.115 , -267.3021 , -0.124855
1.12 , -242.7051 , -0.052419
1.125 , -212.1321 , 0.0213074
1.13 , -176.3355 , 0.0945092
1.135 , -136.197 , 0.165384
1.14 , -92.7051 , 0.232186
1.145 , -46.9302 , 0.293271
1.15 , 0 , 0.347135
1.155 , 46.9302 , 0.392452
1.16 , 92.7051 , 0.428104
1.165 , 136.197 , 0.453216
1.17 , 176.3355 , 0.467167
1.175 , 212.1321 , 0.469616
1.18 , 242.7051 , 0.460501
1.185 , 267.3021 , 0.440047
1.19 , 285.3171 , 0.408758
1.195 , 296.3064 , 0.367403
1.2 , 300 , 0.317002
1.205 , 296.3064 , 0.258795
1.21 , 285.3171 , 0.194216
1.215 , 267.3021 , 0.124855
1.22 , 242.7051 , 0.052419
1.225 , 212.1321 , -0.0213074
1.23 , 176.3355 , -0.0945092
1.235 , 136.197 , -0.165384
1.24 , 92.7051 , -0.232186
1.245 , 46.9302 , -0.293271
1.25 , 0 , -0.347135
1.255 , -46.9302 , -0.392452
1.26 , -92.7051 , -0.428104
1.265 , -136.197 , -0.453216
1.27 , -176.3355 , -0.467167
1.275 , -212.1321 , -0.469616
1.28 , -242.7051 , -0.460501
1.285 , -267.3021 , -0.440047
1.29 , -285.3171 , -0.408758
1.295 , -296.3064 , -0.367403
1.3 , -300 , -0.317002
1.305 , -296.3064 , -0.258795
1.31 , -285.3171 , -0.194216
1.315 , -267.3021 , -0.124855
1.32 , -242.7051 , -0.052419
1.325 , -212.1321 , 0.0213074
1.33 , -176.3355 , 0.0945092
1.335 , -136.197 , 0.165384
1.34 , -92.7051 , 0.232186
1.345 , -46.9302 , 0.293271
1.35 , 0 , 0.347135
1.355 , 46.9302 , 0.392452
1.36 , 92.7051 , 0.428104
1.365 , 136.197 , 0.453216
1.37 , 176.3355 , 0.467167
1.375 , 212.1321 , 0.469616
1.38 , 242.7051 , 0.460501
1.385 , 267.3021 , 0.440047
1.39 , 285.3171 , 0.408758
1.395 , 296.3064 , 0.367403
1.4 , 300 , 0.317002
1.405 , 296.3064 , 0.258795
1.41 , 285.3171 , 0.194216
1.415 , 267.3021 , 0.124855
1.42 , 242.7051 , 0.052419
1.425 , 212.1321 , -0.0213074
1.43 , 176.3355 , -0.0945092
1.435 , 136.197 , -0.165384
1.44 , 92.7051 , -0.232186
1.445 , 46.9302 , -0.293271
1.45 , 0 , -0.347135
1.455 , -46.9302 , -0.392452
1.46 , -92.7051 , -0.428104
1.465 , -136.197 , -0.453216
1.47 , -176.3355 , -0.467167
1.475 , -212.1321 , -0.469616
1.48 , -242.7051 , -0.460501
1.485 , -267.3021 , -0.440047
1.49 , -285.3171 , -0.408758
1.495 , -296.3064 , -0.367403
1.5 , -300 , -0.317002
1.505 , -296.3064 , -0.258795
1.51 , -285.3171 , -0.194216
1.515 , -267.3021 , -0.124855
1.52 , -242.7051 , -0.052419
1.525 , -212.1321 , 0.0213074
1.53 , -176.3355 , 0.0945092
1.535 , -136.197 , 0.165384
1.54 , -92.7051 , 0.232186
1.545 , -46.9302 , 0.293271
1.55 , 0 , 0.347135
1.555 , 46.9302 , 0.392452
1.56 , 92.7051 , 0.428104
1.565 , 136.197 , 0.453216
1.57 , 176.3355 , 0.467167
1.575 , 212.1321 , 0.469616
1.58 , 242.7051 , 0.460501
1.585 , 267.3021 , 0.440047
1.59 , 285.3171 , 0.408758
1.595 , 296.3064 , 0.367403
1.6 , 300 , 0.317002
1.605 , 296.3064 , 0.258795
1.61 , 285.3171 , 0.194216
1.615 , 267.3021 , 0.124855
1.62 , 242.7051 , 0.052419
1.625 , 212.1321 , -0.0213074
1.63 , 176.3355 , -0.0945092
1.635 , 136.197 , -0.165384
1.64 , 92.7051 , -0.232186
1.645 , 46.9302 , -0.293271
1.65 , 0 , -0.347135
1.655 , -46.9302 , -0.392452
1.66 , -92.7051 , -0.428104
1.665 , -136.197 , -0.453216
1.67 , -176.3355 , -0.467167
1.675 , -212.1321 , -0.469616
1.68 , -242.7051 , -0.460501
1.685 , -267.3021 , -0.440047
1.69 , -285.3171 , -0.408758
1.695 , -296.3064 , -0.367403
1.7 , -300 , -0.317002
1.705 , -296.3064 , -0.258795
1.71 , -285.3171 , -0.194216
1.715 , -267.3021 , -0.124855
1.72 , -242.7051 , -0.052419
1.725 , -212.1321 , 0.0213074
1.73 , -176.3355 , 0.0945092
1.735 , -136.197 , 0.165384
1.74 , -92.7051 , 0.232186
1.745 , -46.9302 , 0.293271
1.75 , 0 , 0.347135
1.755 , 46.9302 , 0.392452
1.76 , 92.7051 , 0.428104
1.765 , 136.197 , 0.453216
1.77 , 176.3355 , 0.467167
1.775 , 212.1321 , 0.469616
1.78 , 242.7051 , 0.460501
1.785 , 267.3021 , 0.440047
1.79 , 285.3171 , 0.408758
1.795 , 296.3064 , 0.367403
1.8 , 300 , 0.317002
1.805 , 296.3064 , 0.258795
1.81 , 285.3171 , 0.194216
1.815 , 267.3021 , 0.124855
1.82 , 242.7051 , 0.052419
1.825 , 212.1321 , -0.0213074
1.83 , 176.3355 , -0.0945092
1.835 , 136.197 , -0.165384
1.84 , 92.7051 , -0.232186
1.845 , 46.9302 , -0.293271
1.85 , 0 , -0.347135
1.855 , -46.9302 , -0.392452
1.86 , -92.7051 , -0.428104
1.865 , -136.197 , -0.453216
1.87 , -176.3355 , -0.467167
1.875 , -212.1321 , -0.469616
1.88 , -242.7051 , -0.460501
1.885 , -267.3021 , -0.440047
1.89 , -285.3171 , -0.408758
1.895 , -296.3064 , -0.367403
1.9 , -300 , -0.317002
1.905 , -296.3064 , -0.258795
1.91 , -285.3171 , -0.194216
1.915 , -267.3021 , -0.124855
1.92 , -242.7051 , -0.052419
1.925 , -212.1321 , 0.0213074
1.93 , -176.3355 , 0.0945092
1.935 , -136.197 , 0.165384
1.94 , -92.7051 , 0.232186
1.945 , -46.9302 , 0.293271
1.95 , 0 , 0.347135
1.955 , 46.9302 , 0.392452
1.96 , 92.7051 , 0.428104
1.965 , 136.197 , 0.453216
1.97 , 176.3355 , 0.467167
1.975 , 212.1321 , 0.469616
1.98 , 242.7051 , 0.460501
1.985 , 267.3021 , 0.440047
1.99 , 285.3171 , 0.408758
1.995 , 296.3064 , 0.367403
2 , 300 , 0.317002
2.005 , 296.3064 , 0.258795
2.01 , 285.3171 , 0.194216
2.015 , 267.3021 , 0.124855
2.02 , 242.7051 , 0.052419
2.025 , 212.1321 , -0.0213074
2.03 , 176.3355 , -0.0945092
2.035 , 136.197 , -0.165384
2.04 , 92.7051 , -0.232186
2.045 , 46.9302 , -0.293271
2.05 , 0 , -0.347135
2.055 , -46.9302 , -0.392452
2.06 , -92.7051 , -0.428104
2.065 , -136.197 , -0.453216
2.07 , -176.3355 , -0.467167
2.075 , -212.1321 , -0.469616
2.08 , -242.7051 , -0.460501
2.085 , -267.3021 , -0.440047
2.09 , -285.3171 , -0.408758
2.095 , -296.3064 , -0.367403
2.1 , -300 , -0.317002
2.105 , -296.3064 , -0.258795
2.11 , -285.3171 , -0.194216
2.115 , -267.3021 , -0.124855
2.12 , -242.7051 , -0.052419
2.125 , -212.1321 , 0.0213074
2.13 , -176.3355 , 0.0945092
2.135 , -136.197 , 0.165384
2.14 , -92.7051 , 0.232186
2.145 , -46.9302 , 0.293271
2.15 , 0 , 0.347135
2.155 , 46.9302 , 0.392452
2.16 , 92.7051 , 0.428104
2.165 , 136.197 , 0.453216
2.17 , 176.3355 , 0.467167
2.175 , 212.1321 , 0.469616
2.18 , 242.7051 , 0.460501
2.185 , 267.3021 , 0.440047
2.19 , 285.3171 , 0.408758
2.195 , 296.3064 , 0.367403
2.2 , 300 , 0.317002
2.205 , 296.3064 , 0.258795
2.21 , 285.3171 , 0.194216
2.215 , 267.3021 , 0.124855
2.22 , 242.7051 , 0.052419
2.225 , 212.1321 , -0.0213074
2.23 , 176.3355 , -0.0945092
2.235 , 136.197 , -0.165384
2.24 , 92.7051 , -0.232186
2.245 , 46.9302 , -0.293271
2.25 , 0 , -0.347135
2.255 , -46.9302 , -0.392452
2.26 , -92.7051 , -0.428104
2.265 , -136.197 , -0.453216
2.27 , -176.3355 , -0.467167
2.275 , -212.1321 , -0.469616
2.28 , -242.7051 , -0.460501
2.285 , -267.3021 , -0.440047
2.29 , -285.3171 , -0.408758
2.295 , -296.3064 , -0.367403
2.3 , -300 , -0.317002
2.305 , -296.3064 , -0.258795
2.31 , -285.3171 , -0.194216
2.315 , -267.3021 , -0.124855
2.32 , -242.7051 , -0.052419
2.325 , -212.1321 , 0.0213074
2.33 , -176.3355 , 0.0945092
2.335 , -136.197 , 0.165384
2.34 , -92.7051 , 0.232186
2.345 , -46.9302 , 0.293271
2.35 , 0 , 0.347135
2.355 , 46.9302 , 0.392452
2.36 , 92.7051 , 0.428104
2.365 , 136.197 , 0.453216
2.37 , 176.3355 , 0.467167
2.375 , 212.1321 , 0.469616
2.38 , 242.7051 , 0.460501
2.385 , 267.3021 , 0.440047
2.39 , 285.3171 , 0.408758
2.395 , 296.3064 , 0.367403
2.4 , 300 , 0.317002
2.405 , 296.3064 , 0.258795
2.41 , 285.3171 , 0.194216
2.415 , 267.3021 , 0.124855
2.42 , 242.7051 , 0.052419
2.425 , 212.1321 , -0.0213074
2.43 , 176.3355 , -0.0945092
2.435 , 136.197 , -0.165384
2.44 , 92.7051 , -0.232186
2.445 , 46.9302 , -0.293271
2.45 , 0 , -0.347135
2.455 , -46.9302 , -0.392452
2.46 , -92.7051 , -0.428104
2.465 , -136.197 , -0.453216
2.47 , -176.3355 , -0.467167
2.475 , -212.1321 , -0.469616
2.48 , -242.7051 , -0.460501
2.485 , -267.3021 , -0.440047
2.49 , -285.3171 , -0.408758
2.495 , -296.3064 , -0.367403
2.5 , -300 , -0.317002
2.505 , -296.3064 , -0.258795
2.51 , -285.3171 , -0.194216
2.515 , -267.3021 , -0.124855
2.52 , -242.7051 , -0.052419
2.525 , -212.1321 , 0.0213074
2.53 , -176.3355 , 0.0945092
2.535 , -136.197 , 0.165384
2.54 , -92.7051 , 0.232186
2.545 , -46.9302 , 0.293271
2.55 , 0 , 0.347135
2.555 , 46.9302 , 0.392452
2.56 , 92.7051 , 0.428104
2.565 , 136.197 , 0.453216
2.57 , 176.3355 , 0.467167
2.575 , 212.1321 , 0.469616
2.58 , 242.7051 , 0.460501
2.585 , 267.3021 , 0.440047
2.59 , 285.3171 , 0.408758
2.595 , 296.3064 , 0.367403
2.6 , 300 , 0.317002
2.605 , 296.3064 , 0.258795
2.61 , 285.3171 , 0.194216
2.615 , 267.3021 , 0.124855
2.62 , 242.7051 , 0.052419
2.625 , 212.1321 , -0.0213074
2.63 , 176.3355 , -0.0945092
2.635 , 136.197 , -0.165384
2.64 , 92.7051 , -0.232186
2.645 , 46.9302 , -0.293271
2.65 , 0 , -0.347135
2.655 , -46.9302 , -0.392452
2.66 , -92.7051 , -0.428104
2.665 , -136.197 , -0.453216
2.67 , -176.3355 , -0.467167
2.675 , -212.1321 , -0.469616
2.68 , -242.7051 , -0.460501
2.685 , -267.3021 , -0.440047
2.69 , -285.3171 , -0.408758
2.695 , -296.3064 , -0.367403
2.7 , -300 , -0.317002
2.705 , -296.3064 , -0.258795
2.71 , -285.3171 , -0.194216
2.715 , -267.3021 , -0.124855
2.72 , -242.7051 , -0.052419
2.725 , -212.1321 , 0.0213074
2.73 , -176.3355 , 0.0945092
2.735 , -136.197 , 0.165384
2.74 , -92.7051 , 0.232186
2.745 , -46.9302 , 0.293271
2.75 , 0 , 0.347135
2.755 , 46.9302 , 0.392452
2.76 , 92.7051 , 0.428104
2.765 , 136.197 , 0.453216
2.77 , 176.3355 , 0.467167
2.775 , 212.1321 , 0.469616
2.78 , 242.7051 , 0.460501
2.785 , 267.3021 , 0.440047
2.79 , 285.3171 , 0.408758
2.795 , 296.3064 , 0.367403
2.8 , 300 , 0.317002
2.805 , 296.3064 , 0.258795
2.81 , 285.3171 , 0.194216
2.815 , 267.3021 , 0.124855
2.82 , 242.7051 , 0.052419
2.825 , 212.1321 , -0.0213074
2.83 , 176.3355 , -0.0945092
2.835 , 136.197 , -0.165384
2.84 , 92.7051 , -0.232186
2.845 , 46.9302 , -0.293271
2.85 , 0 , -0.347135
2.855 , -46.9302 , -0.392452
2.86 , -92.7051 , -0.428104
2.865 , -136.197 , -0.453216
2.87 , -176.3355 , -0.467167
2.875 , -212.1321 , -0.469616
2.88 , -242.7051 , -0.460501
2.885 , -267.3021 , -0.440047
2.89 , -285.3171 , -0.408758
2.895 , -296.3064 , -0.367403
2.9 , -300 , -0.317002
2.905 , -296.3064 , -0.258795
2.91 , -285.3171 , -0.194216
2.915 , -267.3021 , -0.124855
2.92 , -242.7051 , -0.052419
2.925 , -212.1321 , 0.0213074
2.93 , -176.3355 , 0.0945092
2.935 , -136.197 , 0.165384
2.94 , -92.7051 , 0.232186
2.945 , -46.9302 , 0.293271
2.95 , 0 , 0.347135
2.955 , 46.9302 , 0.392452
2.96 , 92.7051 , 0.428104
2.965 , 136.197 , 0.453216
2.97 , 176.3355 , 0.467167
2.975 , 212.1321 , 0.469616
2.98 , 242.7051 , 0.460501
2.985 , 267.3021 , 0.440047
2.99 , 285.3171 , 0.408758
2.995 , 296.3064 , 0.367403
3 , 300 , 0.317002
3.005 , 296.3064 , 0.258795
3.01 , 285.3171 , 0.194216
3.015 , 267.3021 , 0.124855
3.02 , 242.7051 , 0.052419
3.025 , 212.1321 , -0.0213074
3.03 , 176.3355 , -0.0945092
3.035 , 136.197 , -0.165384
3.04 , 92.7051 , -0.232186
3.045 , 46.9302 , -0.293271
3.05 , 0 , -0.347135
3.055 , -46.9302 , -0.392452
3.06 , -92.7051 , -0.428104
3.065 , -136.197 , -0.453216
3.07 , -176.3355 , -0.467167
3.075 , -212.1321 , -0.469616
3.08 , -242.7051 , -0.460501
3.085 , -267.3021 , -0.440047
3.09 , -285.3171 , -0.408758
3.095 , -296.3064 , -0.367403
3.1 , -300 , -0.317002
3.105 , -296.3064 , -0.258795
3.11 , -285.3171 , -0.194216
3.115 , -267.3021 , -0.124855
3.12 , -242.7051 , -0.052419
3.125 , -212.1321 , 0.0213074
3.13 , -176.3355 , 0.0945092
3.135 , -136.197 , 0.165384
3.14 , -92.7051 , 0.232186
3.145 , -46.9302 , 0.293271
3.15 , 0 , 0.347135
3.155 , 46.9302 , 0.392452
3.16 , 92.7051 , 0.428104
3.165 , 136.197 , 0.453216
3.17 , 176.3355 , 0.467167
3.175 , 212.1321 , 0.469616
3.18 , 242.7051 , 0.460501
3.185 , 267.3021 , 0.440047
3.19 , 285.3171 , 0.408758
3.195 , 296.3064 , 0.367403
3.2 , 300 , 0.317002
3.205 , 296.3064 , 0.258795
3.21 , 285.3171 , 0.194216
3.215 , 267.3021 , 0.124855
3.22 , 242.7051 , 0.052419
3.225 , 212.1321 , -0.0213074
3.23 , 176.3355 , -0.0945092
3.235 , 136.197 , -0.165384
3.24 , 92.7051 , -0.232186
3.245 , 46.9302 , -0.293271
3.25 , 0 , -0.347135
3.255 , -46.9302 , -0.392452
3.26 , -92.7051 , -0.428104
3.265 , -136.197 , -0.453216
3.27 , -176.3355 , -0.467167
3.275 , -212.1321 , -0.469616
3.28 , -242.7051 , -0.460501
3.285 , -267.3021 , -0.440047
3.29 , -285.3171 , -0.408758
3.295 , -296.3064 , -0.367403
3.3 , -300 , -0.317002
3.305 , -296.3064 , -0.258795
3.31 , -285.3171 , -0.194216
3.315 , -267.3021 , -0.124855
3.32 , -242.7051 , -0.052419
3.325 , -212.1321 , 0.0213074
3.33 , -176.3355 , 0.0945092
3.335 , -136.197 , 0.165384
3.34 , -92.7051 , 0.232186
3.345 , -46.9302 , 0.293271
3.35 , 0 , 0.347135
3.355 , 46.9302 , 0.392452
3.36 , 92.7051 , 0.428104
3.365 , 136.197 , 0.453216
3.37 , 176.3355 , 0.467167
3.375 , 212.1321 , 0.469616
3.38 , 242.7051 , 0.460501
3.385 , 267.3021 , 0.440047
3.39 , 285.3171 , 0.408758
3.395 , 296.3064 , 0.367403
3.4 , 300 , 0.317002
3.405 , 296.3064 , 0.258795
3.41 , 285.3171 , 0.194216
3.415 , 267.3021 , 0.124855
3.42 , 242.7051 , 0.052419
3.425 , 212.1321 , -0.0213074
3.43 , 176.3355 , -0.0945092
3.435 , 136.197 , -0.165384
3.44 , 92.7051 , -0.232186
3.445 , 46.9302 , -0.293271
3.45 , 0 , -0.347135
3.455 , -46.9302 , -0.392452
3.46 , -92.7051 , -0.428104
3.465 , -136.197 , -0.453216
3.47 , -176.3355 , -0.467167
3.475 , -212.1321 , -0.469616
3.48 , -242.7051 , -0.460501
3.485 , -267.3021 , -0.440047
3.49 , -285.3171 , -0.408758
3.495 , -296.3064 , -0.367403
3.5 , -300 , -0.317002
3.505 , -296.3064 , -0.258795
3.51 , -285.3171 , -0.194216
3.515 , -267.3021 , -0.124855
3.52 , -242.7051 , -0.052419
3.525 , -212.1321 , 0.0213074
3.53 , -176.3355 , 0.0945092
3.535 , -136.197 , 0.165384
3.54 , -92.7051 , 0.232186
3.545 , -46.9302 , 0.293271
3.55 , 0 , 0.347135
3.555 , 46.9302 , 0.392452
3.56 , 92.7051 , 0.428104
3.565 , 136.197 , 0.453216
3.57 , 176.3355 , 0.467167
3.575 , 212.1321 , 0.469616
3.58 , 242.7051 , 0.460501
3.585 , 267.3021 , 0.440047
3.59 , 285.3171 , 0.408758
3.595 , 296.3064 , 0.367403
3.6 , 300 , 0.317002
3.605 , 296.3064 , 0.258795
3.61 , 285.3171 , 0.194216
3.615 , 267.3021 , 0.124855
3.62 , 242.7051 , 0.052419
3.625 , 212.1321 , -0.0213074
3.63 , 176.3355 , -0.0945092
3.635 , 136.197 , -0.165384
3.64 , 92.7051 , -0.232186
3.645 , 46.9302 , -0.293271
3.65 , 0 , -0.347135
3.655 , -46.9302 , -0.392452
3.66 , -92.7051 , -0.428104
3.665 , -136.197 , -0.453216
3.67 , -176.3355 , -0.467167
3.675 , -212.1321 , -0.469616
3.68 , -242.7051 , -0.460501
3.685 , -267.3021 , -0.440047
3.69 , -285.3171 , -0.408758
3.695 , -296.3064 , -0.367403
3.7 , -300 , -0.317002
3.705 , -296.3064 , -0.258795
3.71 , -285.3171 , -0.194216
3.715 , -267.3021 , -0.124855
3.72 , -242.7051 , -0.052419
3.725 , -212.1321 , 0.0213074
3.73 , -176.3355 , 0.0945092
3.735 , -136.197 , 0.165384
3.74 , -92.7051 , 0.232186
3.745 , -46.9302 , 0.293271
3.75 , 0 , 0.347135
3.755 , 46.9302 , 0.392452
3.76 , 92.7051 , 0.428104
3.765 , 136.197 , 0.453216
3.77 , 176.3355 , 0.467167
3.775 , 212.1321 , 0.469616
3.78 , 242.7051 , 0.460501
3.785 , 267.3021 , 0.440047
3.79 , 285.3171 , 0.408758
3.795 , 296.3064 , 0.367403
3.8 , 300 , 0.317002
3.805 , 296.3064 , 0.258795
3.81 , 285.3171 , 0.194216
3.815 , 267.3021 , 0.124855
3.82 , 242.7051 , 0.052419
3.825 , 212.1321 , -0.0213074
3.83 , 176.3355 , -0.0945092
3.835 , 136.197 , -0.165384
3.84 , 92.7051 , -0.232186
3.845 , 46.9302 , -0.293271
3.85 , 0 , -0.347135
3.855 , -46.9302 , -0.392452
3.86 , -92.7051 , -0.428104
3.865 , -136.197 , -0.453216
3.87 , -176.3355 , -0.467167
3.875 , -212.1321 , -0.469616
3.88 , -242.7051 , -0.460501
3.885 , -267.3021 , -0.440047
3.89 , -285.3171 , -0.408758
3.895 , -296.3064 , -0.367403
3.9 , -300 , -0.317002
3.905 , -296.3064 , -0.258795
3.91 , -285.3171 , -0.194216
3.915 , -267.3021 , -0.124855
3.92 , -242.7051 , -0.052419
3.925 , -212.1321 , 0.0213074
3.93 , -176.3355 , 0.0945092
3.935 , -136.197 , 0.165384
3.94 , -92.7051 , 0.232186
3.945 , -46.9302 , 0.293271
3.95 , 0 , 0.347135
3.955 , 46.9302 , 0.392452
3.96 , 92.7051 , 0.428104
3.965 , 136.197 , 0.453216
3.97 , 176.3355 , 0.467167
3.975 , 212.1321 , 0.469616
3.98 , 242.7051 , 0.460501
3.985 , 267.3021 , 0.440047
3.99 , 285.3171 , 0.408758
3.995 , 296.3064 , 0.367403
4 , 300 , 0.317002
4.005 , 296.3064 , 0.258795
4.01 , 285.3171 , 0.194216
4.015 , 267.3021 , 0.124855
4.02 , 242.7051 , 0.052419
4.025 , 212.1321 , -0.0213074
4.03 , 176.3355 , -0.0945092
4.035 , 136.197 , -0.165384
4.04 , 92.7051 , -0.232186
4.045 , 46.9302 , -0.293271
4.05 , 0 , -0.347135
4.055 , -46.9302 , -0.392452
4.06 , -92.7051 , -0.428104
4.065 , -136.197 , -0.453216
4.07 , -176.3355 , -0.467167
4.075 , -212.1321 , -0.469616
4.08 , -242.7051 , -0.460501
4.085 , -267.3021 , -0.440047
4.09 , -285.3171 , -0.408758
4.095 , -296.3064 , -0.367403
4.1 , -300 , -0.317002
4.105 , -296.3064 , -0.258795
4.11 , -285.3171 , -0.194216
4.115 , -267.3021 , -0.124855
4.12 , -242.7051 , -0.052419
4.125 , -212.1321 , 0.0213074
4.13 , -176.3355 , 0.0945092
4.135 , -136.197 , 0.165384
4.14 , -92.7051 , 0.232186
4.145 , -46.9302 , 0.293271
4.15 , 0 , 0.347135
4.155 , 46.9302 , 0.392452
4.16 , 92.7051 , 0.428104
4.165 , 136.197 , 0.453216
4.17 , 176.3355 , 0.467167
4.175 , 212.1321 , 0.469616
4.18 , 242.7051 , 0.460501
4.185 , 267.3021 , 0.440047
4.19 , 285.3171 , 0.408758
4.195 , 296.3064 , 0.367403
4.2 , 300 , 0.317002
4.205 , 296.3064 , 0.258795
4.21 , 285.3171 , 0.194216
4.215 , 267.3021 , 0.124855
4.22 , 242.7051 , 0.052419
4.225 , 212.1321 , -0.0213074
4.23 , 176.3355 , -0.0945092
4.235 , 136.197 , -0.165384
4.24 , 92.7051 , -0.232186
4.245 , 46.9302 , -0.293271
4.25 , 0 , -0.347135
4.255 , -46.9302 , -0.392452
4.26 , -92.7051 , -0.428104
4.265 , -136.197 , -0.453216
4.27 , -176.3355 , -0.467167
4.275 , -212.1321 , -0.469616
4.28 , -242.7051 , -0.460501
4.285 , -267.3021 , -0.440047
4.29 , -285.3171 , -0.408758
4.295 , -296.3064 , -0.367403
4.3 , -300 , -0.317002
4.305 , -296.3064 , -0.258795
4.31 , -285.3171 , -0.194216
4.315 , -267.3021 , -0.124855
4.32 , -242.7051 , -0.052419
4.325 , -212.1321 , 0.0213074
4.33 , -176.3355 , 0.0945092
4.335 , -136.197 , 0.165384
4.34 , -92.7051 , 0.232186
4.345 , -46.9302 , 0.293271
4.35 , 0 , 0.347135
4.355 , 46.9302 , 0.392452
4.36 , 92.7051 , 0.428104
4.365 , 136.197 , 0.453216
4.37 , 176.3355 , 0.467167
4.375 , 212.1321 , 0.469616
4.38 , 242.7051 , 0.460501
4.385 , 267.3021 , 0.440047
4.39 , 285.3171 , 0.408758
4.395 , 296.3064 , 0.367403
4.4 , 300 , 0.317002
4.405 , 296.3064 , 0.258795
4.41 , 285.3171 , 0.194216
4.415 , 267.3021 , 0.124855
4.42 , 242.7051 , 0.052419
4.425 , 212.1321 , -0.0213074
4.43 , 176.3355 , -0.0945092
4.435 , 136.197 , -0.165384
4.44 , 92.7051 , -0.232186
4.445 , 46.9302 , -0.293271
4.45 , 0 , -0.347135
4.455 , -46.9302 , -0.392452
4.46 , -92.7051 , -0.428104
4.465 , -136.197 , -0.453216
4.47 , -176.3355 , -0.467167
4.475 , -212.1321 , -0.469616
4.48 , -242.7051 , -0.460501
4.485 , -267.3021 , -0.440047
4.49 , -285.3171 , -0.408758
4.495 , -296.3064 , -0.367403
4.5 , -300 , -0.317002
4.505 , -296.3064 , -0.258795
4.51 , -285.3171 , -0.194216
4.515 , -267.3021 , -0.124855
4.52 , -242.7051 , -0.052419
4.525 , -212.1321 , 0.0213074
4.53 , -176.3355 , 0.0945092
4.535 , -136.197 , 0.165384
4.54 , -92.7051 , 0.232186
4.545 , -46.9302 , 0.293271
4.55 , 0 , 0.347135
4.555 , 46.9302 , 0.392452
4.56 , 92.7051 , 0.428104
4.565 , 136.197 , 0.453216
4.57 , 176.3355 , 0.467167
4.575 , 212.1321 , 0.469616
4.58 , 242.7051 , 0.460501
4.585 , 267.3021 , 0.440047
4.59 , 285.3171 , 0.408758
4.595 , 296.3064 , 0.367403
4.6 , 300 , 0.317002
4.605 , 296.3064 , 0.258795
4.61 , 285.3171 , 0.194216
4.615 , 267.3021 , 0.124855
4.62 , 242.7051 , 0.052419
4.625 , 212.1321 , -0.0213074
4.63 , 176.3355 , -0.0945092
4.635 , 136.197 , -0.165384
4.64 , 92.7051 , -0.232186
4.645 , 46.9302 , -0.293271
4.65 , 0 , -0.347135
4.655 , -46.9302 , -0.392452
4.66 , -92.7051 , -0.428104
4.665 , -136.197 , -0.453216
4.67 , -176.3355 , -0.467167
4.675 , -212.1321 , -0.469616
4.68 , -242.7051 , -0.460501
4.685 , -267.3021 , -0.440047
4.69 , -285.3171 , -0.408758
4.695 , -296.3064 , -0.367403
4.7 , -300 , -0.317002
4.705 , -296.3064 , -0.258795
4.71 , -285.3171 , -0.194216
4.715 , -267.3021 , -0.124855
4.72 , -242.7051 , -0.052419
4.725 , -212.1321 , 0.0213074
4.73 , -176.3355 , 0.0945092
4.735 , -136.197 , 0.165384
4.74 , -92.7051 , 0.232186
4.745 , -46.9302 , 0.293271
4.75 , 0 , 0.347135
4.755 , 46.9302 , 0.392452
4.76 , 92.7051 , 0.428104
4.765 , 136.197 , 0.453216
4.77 , 176.3355 , 0.467167
4.775 , 212.1321 , 0.469616
4.78 , 242.7051 , 0.460501
4.785 , 267.3021 , 0.440047
4.79 , 285.3171 , 0.408758
4.795 , 296.3064 , 0.367403
4.8 , 300 , 0.317002
4.805 , 296.3064 , 0.258795
4.81 , 285.3171 , 0.194216
4.815 , 267.3021 , 0.124855
4.82 , 242.7051 , 0.052419
4.825 , 212.1321 , -0.0213074
4.83 , 176.3355 , -0.0945092
4.835 , 136.197 , -0.165384
4.84 , 92.7051 , -0.232186
4.845 , 46.9302 , -0.293271
4.85 , 0 , -0.347135
4.855 , -46.9302 , -0.392452
4.86 , -92.7051 , -0.428104
4.865 , -136.197 , -0.453216
4.87 , -176.3355 , -0.467167
4.875 , -212.1321 , -0.469616
4.88 , -242.7051 , -0.460501
4.885 , -267.3021 , -0.440047
4.89 , -285.3171 , -0.408758
4.895 , -296.3064 , -0.367403
4.9 , -300 , -0.317002
4.905 , -296.3064 , -0.258795
4.91 , -285.3171 , -0.194216
4.915 , -267.3021 , -0.124855
4.92 , -242.7051 , -0.052419
4.925 , -212.1321 , 0.0213074
4.93 , -176.3355 , 0.0945092
4.935 , -136.197 , 0.165384
4.94 , -92.7051 , 0.232186
4.945 , -46.9302 , 0.293271
4.95 , 0 , 0.347135
4.955 , 46.9302 , 0.392452
4.96 , 92.7051 , 0.428104
4.965 , 136.197 , 0.453216
4.97 , 176.3355 , 0.467167
4.975 , 212.1321 , 0.469616
4.98 , 242.7051 , 0.460501
4.985 , 267.3021 , 0.440047
4.99 , 285.3171 , 0.408758
4.995 , 296.3064 , 0.367403
5 , 300 , 0.317002